hematite ST08 -> 104.hem
     alpha      beta intensity
    90.000   177.434       250
    90.000   184.634       155
    90.000   191.834       193
    90.000   199.034       133
    90.000   206.234       155
    90.000   213.434        74
    90.000   220.634       198
    90.000   227.834       173
    90.000   235.034       155
    90.000   242.234       241
    90.000   249.434       149
    90.000   256.634       235
    90.000   263.834       208
    90.000   271.034       273
    90.000   278.234       219
    90.000   285.434       232
    90.000   292.634       175
    90.000   299.834       142
    90.000   307.034       213
    90.000   314.234       250
    90.000   321.434       198
    90.000   328.634       105
    90.000   335.834       163
    90.000   343.034       173
    90.000   350.234       133
    90.000   357.434       213
    90.000     4.634       301
    90.000    11.834       217
    90.000    19.034       222
    90.000    26.234       228
    90.000    33.434       182
    90.000    40.634       208
    90.000    47.834       229
    90.000    55.034       181
    90.000    62.234       184
    90.000    69.434       142
    90.000    76.634       301
    90.000    83.834       281
    90.000    91.034       265
    90.000    98.234       207
    90.000   105.434       281
    90.000   112.634       270
    90.000   119.834       247
    90.000   127.034       191
    90.000   134.234       227
    90.000   141.434       306
    90.000   148.634       274
    90.000   155.834       279
    90.000   163.034       221
    90.000   170.234       249
    82.807   177.414       331
    82.807   184.614       342
    82.807   191.814       235
    82.807   199.014       271
    82.807   206.214       197
    82.807   213.414       235
    82.807   220.614       280
    82.807   227.814       282
    82.807   235.014       229
    82.807   242.214       290
    82.807   249.414       245
    82.807   256.614       254
    82.807   263.814       230
    82.807   271.014       222
    82.807   278.214       190
    82.807   285.414       209
    82.807   292.614       238
    82.807   299.814       199
    82.807   307.014       181
    82.807   314.214       188
    82.807   321.414       184
    82.807   328.614       182
    82.807   335.814       160
    82.807   343.014       213
    82.807   350.214        76
    82.807   357.414       107
    82.807     4.614       197
    82.807    11.814       123
    82.807    19.014        82
    82.807    26.214       214
    82.807    33.414       130
    82.807    40.614       177
    82.807    47.814       213
    82.807    55.014       223
    82.807    62.214       206
    82.807    69.414       104
    82.807    76.614       236
    82.807    83.814       188
    82.807    91.014       166
    82.807    98.214       212
    82.807   105.414       268
    82.807   112.614       254
    82.807   119.814       271
    82.807   127.014       271
    82.807   134.214       270
    82.807   141.414       410
    82.807   148.614       298
    82.807   155.814       381
    82.807   163.014       418
    82.807   170.214       463
    75.615   177.351       408
    75.615   184.551       443
    75.615   191.751       473
    75.615   198.951       429
    75.615   206.151       314
    75.615   213.351       269
    75.615   220.551       319
    75.615   227.751       270
    75.615   234.951       410
    75.615   242.151       308
    75.615   249.351       327
    75.615   256.551       348
    75.615   263.751       320
    75.615   270.951       301
    75.615   278.151       263
    75.615   285.351       276
    75.615   292.551       200
    75.615   299.751       182
    75.615   306.951       133
    75.615   314.151        96
    75.615   321.351       195
    75.615   328.551       144
    75.615   335.751       123
    75.615   342.951        93
    75.615   350.151        48
    75.615   357.351        19
    75.615     4.551        81
    75.615    11.751        -3
    75.615    18.951        90
    75.615    26.151       131
    75.615    33.351       145
    75.615    40.551       120
    75.615    47.751       177
    75.615    54.951       148
    75.615    62.151       199
    75.615    69.351       195
    75.615    76.551       232
    75.615    83.751       293
    75.615    90.951       248
    75.615    98.151       385
    75.615   105.351       273
    75.615   112.551       390
    75.615   119.751       368
    75.615   126.951       462
    75.615   134.151       399
    75.615   141.351       494
    75.615   148.551       453
    75.615   155.751       416
    75.615   162.951       390
    75.615   170.151       517
    68.423   177.241       538
    68.423   184.741       484
    68.423   192.241       431
    68.423   199.741       457
    68.423   207.241       390
    68.423   214.741       478
    68.423   222.241       455
    68.423   229.741       494
    68.423   237.241       477
    68.423   244.741       386
    68.423   252.241       521
    68.423   259.741       463
    68.423   267.241       350
    68.423   274.741       369
    68.423   282.241       344
    68.423   289.741       328
    68.423   297.241       312
    68.423   304.741       236
    68.423   312.241       178
    68.423   319.741        95
    68.423   327.241       107
    68.423   334.741        96
    68.423   342.241        78
    68.423   349.741        41
    68.423   357.241        43
    68.423     4.741        21
    68.423    12.241        88
    68.423    19.741        -6
    68.423    27.241        73
    68.423    34.741       119
    68.423    42.241       181
    68.423    49.741       114
    68.423    57.241       199
    68.423    64.741       297
    68.423    72.241       249
    68.423    79.741       297
    68.423    87.241       401
    68.423    94.741       362
    68.423   102.241       506
    68.423   109.741       433
    68.423   117.241       537
    68.423   124.741       461
    68.423   132.241       596
    68.423   139.741       563
    68.423   147.241       486
    68.423   154.741       465
    68.423   162.241       510
    68.423   169.741       519
    61.232   177.073       608
    61.232   185.073       581
    61.232   193.073       733
    61.232   201.073       503
    61.232   209.073       587
    61.232   217.073       618
    61.232   225.073       650
    61.232   233.073       531
    61.232   241.073       678
    61.232   249.073       615
    61.232   257.073       644
    61.232   265.073       610
    61.232   273.073       512
    61.232   281.073       549
    61.232   289.073       352
    61.232   297.073       399
    61.232   305.073       306
    61.232   313.073       229
    61.232   321.073       186
    61.232   329.073        99
    61.232   337.073        94
    61.232   345.073        92
    61.232   353.073       180
    61.232     1.073        89
    61.232     9.073        13
    61.232    17.073        47
    61.232    25.073       132
    61.232    33.073       160
    61.232    41.073       208
    61.232    49.073       190
    61.232    57.073       320
    61.232    65.073       292
    61.232    73.073       390
    61.232    81.073       420
    61.232    89.073       463
    61.232    97.073       606
    61.232   105.073       575
    61.232   113.073       722
    61.232   121.073       724
    61.232   129.073       738
    61.232   137.073       738
    61.232   145.073       743
    61.232   153.073       710
    61.232   161.073       661
    61.232   169.073       555
    54.042   176.830       728
    54.042   184.830       741
    54.042   192.830       663
    54.042   200.830       785
    54.042   208.830       822
    54.042   216.830       829
    54.042   224.830       876
    54.042   232.830       903
    54.042   240.830      1039
    54.042   248.830       905
    54.042   256.830       881
    54.042   264.830       819
    54.042   272.830       712
    54.042   280.830       604
    54.042   288.830       586
    54.042   296.830       552
    54.042   304.830       401
    54.042   312.830       378
    54.042   320.830       258
    54.042   328.830       308
    54.042   336.830       232
    54.042   344.830       184
    54.042   352.830       146
    54.042     0.830        82
    54.042     8.830       153
    54.042    16.830       220
    54.042    24.830       179
    54.042    32.830       274
    54.042    40.830       322
    54.042    48.830       405
    54.042    56.830       437
    54.042    64.830       486
    54.042    72.830       611
    54.042    80.830       736
    54.042    88.830       683
    54.042    96.830       876
    54.042   104.830       894
    54.042   112.830       932
    54.042   120.830      1083
    54.042   128.830      1131
    54.042   136.830      1165
    54.042   144.830      1051
    54.042   152.830       939
    54.042   160.830       959
    54.042   168.830       852
    46.854   176.482      1204
    46.854   185.482      1247
    46.854   194.482      1097
    46.854   203.482      1130
    46.854   212.482      1233
    46.854   221.482      1305
    46.854   230.482      1282
    46.854   239.482      1476
    46.854   248.482      1325
    46.854   257.482      1208
    46.854   266.482      1186
    46.854   275.482      1124
    46.854   284.482       966
    46.854   293.482       869
    46.854   302.482       772
    46.854   311.482       773
    46.854   320.482       586
    46.854   329.482       520
    46.854   338.482       511
    46.854   347.482       335
    46.854   356.482       419
    46.854     5.482       347
    46.854    14.482       395
    46.854    23.482       437
    46.854    32.482       463
    46.854    41.482       616
    46.854    50.482       674
    46.854    59.482       772
    46.854    68.482       826
    46.854    77.482       849
    46.854    86.482       929
    46.854    95.482       985
    46.854   104.482      1188
    46.854   113.482      1278
    46.854   122.482      1356
    46.854   131.482      1514
    46.854   140.482      1560
    46.854   149.482      1434
    46.854   158.482      1328
    46.854   167.482      1307
    39.669   175.979      1622
    39.669   185.979      1597
    39.669   195.979      1523
    39.669   205.979      1513
    39.669   215.979      1663
    39.669   225.979      1648
    39.669   235.979      1443
    39.669   245.979      1623
    39.669   255.979      1427
    39.669   265.979      1379
    39.669   275.979      1290
    39.669   285.979      1132
    39.669   295.979      1093
    39.669   305.979      1001
    39.669   315.979      1026
    39.669   325.979       932
    39.669   335.979       961
    39.669   345.979       909
    39.669   355.979      1110
    39.669     5.979      1155
    39.669    15.979      1032
    39.669    25.979       991
    39.669    35.979      1080
    39.669    45.979      1062
    39.669    55.979      1151
    39.669    65.979      1047
    39.669    75.979       948
    39.669    85.979      1025
    39.669    95.979      1306
    39.669   105.979      1331
    39.669   115.979      1339
    39.669   125.979      1422
    39.669   135.979      1550
    39.669   145.979      1539
    39.669   155.979      1492
    39.669   165.979      1644
    32.490   175.220      1346
    32.490   187.220      1129
    32.490   199.220      1301
    32.490   211.220      1385
    32.490   223.220      1322
    32.490   235.220      1362
    32.490   247.220      1339
    32.490   259.220      1416
    32.490   271.220      1368
    32.490   283.220      1288
    32.490   295.220      1177
    32.490   307.220      1109
    32.490   319.220      1216
    32.490   331.220      1298
    32.490   343.220      1291
    32.490   355.220      1303
    32.490     7.220      1366
    32.490    19.220      1422
    32.490    31.220      1289
    32.490    43.220      1194
    32.490    55.220      1042
    32.490    67.220       993
    32.490    79.220       947
    32.490    91.220      1056
    32.490   103.220      1081
    32.490   115.220      1330
    32.490   127.220      1229
    32.490   139.220      1335
    32.490   151.220      1307
    32.490   163.220      1310
    25.322   173.992       761
    25.322   188.992       862
    25.322   203.992       933
    25.322   218.992      1067
    25.322   233.992      1253
    25.322   248.992      1107
    25.322   263.992      1154
    25.322   278.992      1060
    25.322   293.992      1026
    25.322   308.992       904
    25.322   323.992       925
    25.322   338.992       899
    25.322   353.992       958
    25.322     8.992       867
    25.322    23.992       897
    25.322    38.992       869
    25.322    53.992       844
    25.322    68.992       761
    25.322    83.992       744
    25.322    98.992       935
    25.322   113.992       997
    25.322   128.992      1046
    25.322   143.992       848
    25.322   158.992       930
    18.176   171.749       661
    18.176   201.749       616
    18.176   231.749       871
    18.176   261.749       869
    18.176   291.749       688
    18.176   321.749       604
    18.176   351.749       588
    18.176    21.749       636
    18.176    51.749       578
    18.176    81.749       574
    18.176   111.749       734
    18.176   141.749       637
    11.097   166.551       524
    11.097   202.551       530
    11.097   238.551       655
    11.097   274.551       727
    11.097   310.551       629
    11.097   346.551       407
    11.097    22.551       379
    11.097    58.551       493
    11.097    94.551       511
    11.097   130.551       625
     4.420   144.486       453
     4.420   234.486       643
     4.420   324.486       359
     4.420    54.486       339
     2.566    90.000       420
     2.566   180.000       535
     2.566   270.000       432
     2.566     0.000       392
    12.566    90.000       443
    12.566   180.000       706
    12.566   270.000       484
    12.566     0.000       424
    10.066    90.000       471
    10.066   180.000       634
    10.066   270.000       366
    10.066     0.000       450
     7.566    90.000       347
     7.566   180.000       618
     7.566   270.000       369
     7.566     0.000       380
     5.066    90.000       507
     5.066   180.000       451
     5.066   270.000       375
     5.066     0.000       419
     0.066    90.000       415
     0.066   180.000       599
     0.066   270.000       324
     0.066     0.000       467
     2.434   270.000       382
     2.434     0.000       599
     2.434    90.000       322
     2.434   180.000       506
     4.934   270.000       444
     4.934     0.000       562
     4.934    90.000       337
     4.934   180.000       428
     7.434   270.000       467
     7.434     0.000       478
     7.434    90.000       432
     7.434   180.000       447
